B
10.81
2.34
(Energy (eV),f1,f2)
 
6.8501      -0.8092      0.91012
6.9891      -0.83237      0.9787
7.1091      -0.83337      1.0456
7.28011      -0.83866      1.07886
7.51011      -0.86722      1.18421
7.77311      -0.88957      1.298
7.95812      -0.89188      1.41242
8.31012      -0.86201      1.57726
8.78113      -0.80652      1.80456
9.42814      -0.68167      2.10077
9.96714      -0.53163      2.33766
10.40115      -0.3795      2.50274
10.92416      -0.15889      2.69048
11.83117      0.17383      2.71316
12.57418      0.35221      2.82579
13.4772      0.62785      3.02531
14.25121      0.92045      3.06557
14.83122      1.07293      2.97098
16.68724      1.49375      3.22101
18.39527      2.0188      3.21274
21.23031      2.8275      2.96311
23.13134      3.28804      2.63043
23.57334      3.35798      2.51137
24.01535      3.40387      2.42553
24.45736      3.45374      2.33874
24.89936      3.49239      2.25101
25.34137      3.52705      2.16309
25.78337      3.55754      2.07665
26.22538      3.5837      1.99261
26.66739      3.60537      1.91012
27.10939      3.63179      1.83283
27.5514      3.58598      1.6754
28.05041      3.55588      1.67519
28.50141      3.56715      1.63174
29.03542      3.57255      1.58444
29.51943      3.58109      1.53172
30.01944      3.58806      1.47676
30.53744      3.58163      1.41952
31.07345      3.57249      1.40056
31.54746      3.60586      1.3162
32.03647      3.57398      1.27928
32.54147      3.56553      1.21106
33.06148      3.56844      1.17955
33.50849      3.55059      1.1372
34.06049      3.53487      1.08214
34.5355      3.52726      1.05512
35.02351      3.50202      1.02768
35.52452      3.48983      1.01044
36.04152      3.48073      0.98185
36.57253      3.47788      0.94627
37.00954      3.46504      0.93956
37.57055      3.45885      0.8967
38.03155      3.45166      0.88366
38.50356      3.44297      0.84784
38.98757      3.42499      0.83173
39.48457      3.41307      0.80756
39.99458      3.39942      0.78002
40.51659      3.37945      0.76983
41.0536      3.3639      0.75326
41.6046      3.35065      0.74215
42.02761      3.33772      0.73561
42.60562      3.32791      0.72368
43.04962      3.3217      0.71915
43.50263      3.31929      0.71958
44.12164      3.31723      0.70532
44.59765      3.31535      0.69184
45.08465      3.31268      0.68231
45.58166      3.30899      0.67004
46.08967      3.30429      0.65868
46.60968      3.29861      0.64303
47.14168      3.29468      0.63191
47.50269      3.28755      0.62631
48.0547      3.28458      0.61494
48.62071      3.27464      0.60378
49.00471      3.27123      0.59429
49.59272      3.26204      0.5844
50.19473      3.25463      0.58093
51.02174      3.25278      0.57157
51.65875      3.2491      0.56201
52.09276      3.24486      0.55343
52.53476      3.24362      0.54838
52.98377      3.2418      0.53982
53.67178      3.23803      0.52848
53.90478      3.23644      0.52416
54.61779      3.23097      0.51367
55.1028      3.2303      0.5034
55.59681      3.22516      0.49347
55.84781      3.2224      0.48835
56.10081      3.21943      0.48553
56.61282      3.21692      0.47638
57.13483      3.20965      0.46766
57.66584      3.20573      0.46064
58.20785      3.20121      0.45155
58.75885      3.1958      0.44423
59.03886      3.19063      0.43941
59.60687      3.18409      0.43158
60.18087      3.17616      0.42231
61.07089      3.16575      0.41069
61.6809      3.15624      0.40554
62.3009      3.15045      0.39927
62.93091      3.1435      0.39121
63.58092      3.13632      0.38774
64.24093      3.1278      0.38231
64.91094      3.12326      0.37738
65.77095      3.10135      0.37388
66.12096      3.10086      0.373
66.84097      3.0944      0.37293
68.31099      3.08863      0.36335
69.46101      3.07614      0.35048
70.24102      3.06981      0.36156
71.05103      3.06347      0.349
71.87104      3.04862      0.35267
72.72106      3.04668      0.34509
73.58107      3.04292      0.33992
74.46108      3.03806      0.33866
75.37109      3.03277      0.33477
76.30111      3.02609      0.33287
77.25112      3.01787      0.33006
78.22114      3.00797      0.32908
79.22115      3.00503      0.32862
80.25117      3.00122      0.3228
81.30118      2.99565      0.31852
82.3812      2.98888      0.31566
83.49121      2.98073      0.31066
84.63123      2.98016      0.30553
85.80125      2.96888      0.30217
87.00126      2.96529      0.29876
88.09128      2.96058      0.29506
89.3513      2.95389      0.29028
90.66132      2.94643      0.28517
91.67133      2.93714      0.28102
92.52134      2.93706      0.27727
93.57136      2.92564      0.27261
94.64137      2.92413      0.26764
95.74139      2.91035      0.26252
96.86141      2.90677      0.25693
98.01142      2.89012      0.25101
99.18144      2.88397      0.2447
100.39146      2.87735      0.24412
101.62148      2.85574      0.23547
102.89149      2.84625      0.23326
104.18151      2.83469      0.22844
105.51153      2.82201      0.22448
106.88155      2.80802      0.22318
108.28157      2.80702      0.21766
109.72159      2.7897      0.21393
111.19161      2.76998      0.20989
112.71164      2.76491      0.20574
114.27166      2.74167      0.20161
115.87168      2.71585      0.19784
117.52171      2.70534      0.19309
119.21173      2.69274      0.18667
120.96176      2.65998      0.18189
122.75178      2.64284      0.17709
123.9818      2.61735      0.17357
125.87183      2.59634      0.17018
127.81186      2.5515      0.17421
129.82188      2.5245      0.17413
131.89191      2.51657      0.17371
134.76196      2.46453      0.16252
136.99199      2.42664      0.15665
138.53201      2.4078      0.15233
140.09203      2.36183      0.14824
141.53205      2.3337      0.14405
142.83207      2.29841      0.14083
144.16209      2.2882      0.14586
145.52211      2.25025      0.14247
146.90213      2.21024      0.14173
148.30215      2.1681      0.13879
149.73217      2.15271      0.13622
151.2022      2.10738      0.13683
153.25222      2.04464      0.13371
155.17225      1.97289      0.1332
156.74228      1.95011      0.1288
158.3423      1.89383      0.12936
159.97232      1.83473      0.12552
161.64235      1.73943      0.12564
163.35237      1.67394      0.12739
165.0924      1.60512      0.1207
166.86242      1.49713      0.12366
168.68245      1.42069      0.12283
170.54248      1.30325      0.12049
172.4325      1.14197      0.12021
174.37253      1.0121      0.11639
176.36256      0.79641      0.11472
178.39259      0.5704      0.11612
180.47262      0.29189      0.11509
182.59265      -0.12805      0.11222
183.95267      -0.47654      0.11541
184.49268      -0.65365      0.11443
185.04269      -0.8329      0.11257
185.60269      -1.05846      0.11356
186.1627      -1.37544      0.12002
186.72271      -1.78545      0.14261
187.28272      -2.29013      0.29682
187.85273      -2.84623      0.72104
188.42274      -3.1817      1.56494
188.99274      -3.2467      2.20684
189.57275      -3.12864      3.01913
190.15276      -2.82377      3.44685
190.74277      -2.46869      3.88422
191.33278      -2.10904      4.13372
191.92279      -1.83913      4.17812
192.5228      -1.70829      4.15446
193.1228      -1.71895      4.30025
193.72281      -1.72965      4.56964
194.33282      -1.64386      4.93642
194.94283      -1.50824      5.28371
195.55284      -1.2729      5.66932
196.17285      -0.93611      5.97631
196.79286      -0.59497      6.19263
197.42287      -0.24949      6.36208
198.05288      0.05022      6.46804
198.69288      0.40434      6.59583
199.32289      0.71209      6.7191
199.9729      1.07512      6.82443
200.61291      1.44268      6.90941
201.27292      1.8671      6.94976
201.92293      2.24457      6.92686
202.58294      2.6796      6.86188
203.25295      3.12047      6.72752
203.91296      3.5134      6.54238
204.59297      3.85841      6.26455
205.26298      4.15342      5.88492
205.95299      4.39861      5.59872
206.633      4.53703      5.14051
207.32301      4.56738      4.84638
208.02302      4.59828      4.46088
208.72303      4.51773      4.17806
209.43304      4.43621      3.93138
210.14305      4.35326      3.73307
210.85306      4.21197      3.57733
211.57307      4.06887      3.47917
212.29308      3.98121      3.41115
213.02309      3.83435      3.36609
213.7631      3.74403      3.35383
214.50311      3.71109      3.34823
215.99314      3.64338      3.38535
217.51316      3.63426      3.42287
219.05318      3.68591      3.44448
220.6032      3.73826      3.42736
222.19323      3.79234      3.37265
223.79325      3.84715      3.30535
225.42327      3.9034      3.20534
227.0733      3.89474      3.13626
228.75332      3.88559      3.08904
230.45335      3.87557      3.0515
232.17337      3.86462      3.03442
233.9234      3.85305      3.02639
235.70342      3.84078      3.03706
237.51345      3.82778      3.05789
239.34347      3.88699      3.08099
241.2135      3.94797      3.09431
243.10353      4.01008      3.10365
245.02356      4.07367      3.08523
246.97359      4.13877      3.06737
248.96361      4.20573      3.02734
250.97364      4.19328      2.99578
253.02367      4.26206      2.96295
254.06369      4.29717      2.94026
255.1037      4.24911      2.92272
256.16372      4.28449      2.9269
257.22373      4.32003      2.91305
259.37377      4.39255      2.91631
261.5638      4.46704      2.88956
263.79383      4.54353      2.86153
266.05386      4.5311      2.82015
268.3539      4.60978      2.76494
270.70393      4.69087      2.70194
273.08396      4.67824      2.63891
275.514      4.76187      2.57141
277.98404      4.7487      2.51088
280.50407      4.73446      2.45688
283.06411      4.82127      2.39012
285.67415      4.80611      2.35917
288.33419      4.7896      2.332
291.03423      4.77128      2.30323
293.79427      4.7517      2.27198
296.60431      4.84303      2.24019
299.47435      4.82239      2.19189
302.39439      4.79983      2.18685
305.37443      4.8949      2.1836
308.41448      4.87106      2.13474
311.51452      4.84524      2.08345
314.67457      4.94404      2.04988
321.19466      4.88689      2.01155
327.99476      4.95827      1.96816
335.08486      5.0312      1.90898
342.49497      5.04293      1.83216
350.23508      5.06615      1.76043
358.3252      5.08756      1.68983
371.20539      5.10883      1.58945
380.31552      5.11453      1.51843
385.03559      5.11511      1.48424
394.84573      5.11162      1.4291
405.16588      5.09229      1.37027
416.04604      5.10132      1.33184
427.52621      5.09657      1.27999
439.65638      5.10529      1.24477
444.37645      5.09667      1.22361
450.84655      5.10825      1.21526
457.49664      5.10464      1.18974
464.34674      5.10958      1.17319
471.41684      5.10704      1.16366
478.69695      5.11637      1.11481
486.20706      5.11776      1.0865
493.94717      5.11645      1.06202
501.94729      5.1029      1.01929
510.21741      5.07247      0.9865
514.44747      5.04511      0.96226
518.74753      5.02301      0.94741
523.12759      4.96805      0.93545
527.57766      4.91752      0.9158
532.10773      4.70147      0.95697
533.25774      4.67448      1.09945
534.40776      4.72026      1.18464
535.55778      4.76263      1.19708
536.71779      4.76853      1.20227
537.87781      4.77065      1.26674
539.04783      4.80258      1.32434
540.22784      4.861      1.38619
541.40786      4.92729      1.3885
542.58788      4.98271      1.39456
543.77789      5.03109      1.38932
544.97791      5.07994      1.38406
546.17793      5.12907      1.36342
547.37795      5.17081      1.3349
548.58796      5.20526      1.29842
549.80798      5.22843      1.2539
551.028      5.23611      1.20893
552.25802      5.22438      1.16358
553.48804      5.20845      1.14915
554.72805      5.2003      1.13855
555.96807      5.18796      1.11199
557.21809      5.17554      1.12097
558.47811      5.17102      1.11407
559.73813      5.17432      1.13113
561.50815      5.17481      1.11004
564.5782      5.17442      1.10589
567.67824      5.18189      1.10156
572.92832      5.19414      1.08421
578.2684      5.20579      1.06599
583.71847      5.21278      1.04692
589.26855      5.21902      1.03136
594.91864      5.22443      1.01498
600.68872      5.23387      1.00243
605.59879      5.23527      0.99071
612.11889      5.24307      0.97378
618.77898      5.24995      0.96077
625.59908      5.25608      0.94199
632.55918      5.26098      0.92208
639.67929      5.27007      0.90629
646.95939      5.27282      0.88952
654.4095      5.27434      0.87175
662.03961      5.27461      0.85291
669.83972      5.27325      0.83292
677.82984      5.27628      0.8235
686.01996      5.272      0.80737
694.40008      5.27195      0.79635
702.99021      5.27033      0.78454
711.79033      5.27338      0.77187
720.82046      5.27499      0.76497
730.0806      5.28174      0.75746
739.59074      5.28718      0.74231
749.34088      5.29092      0.73325
759.35102      5.30034      0.72344
769.64117      5.30846      0.70527
779.76132      5.31665      0.6928
789.69146      5.32519      0.67862
799.88161      5.32426      0.65529
810.34176      5.32991      0.63892
821.07192      5.3339      0.62143
832.09208      5.33622      0.60276
843.41224      5.33669      0.58285
855.04241      5.33512      0.57095
867.00259      5.33144      0.55817
879.30277      5.32541      0.54442
891.95295      5.33715      0.52964
899.72306      5.34763      0.52855    
   907.943      5.27049     0.377113    
   922.628      5.26617     0.365835    
   937.551      5.26180     0.355111    
   952.715      5.25754     0.344749    
   968.124      5.25338     0.334727    
   983.783      5.24931     0.324999    
   999.695      5.24536     0.315525    
   1015.86      5.24154     0.306299    
   1032.29      5.23778     0.297006    
   1048.99      5.23388     0.287954    
   1065.96      5.22991     0.279137    
   1083.20      5.22591     0.270598    
   1100.72      5.22191     0.262319    
   1118.52      5.21792     0.254289    
   1136.61      5.21394     0.246507    
   1155.00      5.20998     0.238961    
   1173.68      5.20605     0.231645    
   1192.66      5.20216     0.224555    
   1211.95      5.19831     0.217682    
   1231.55      5.19450     0.211021    
   1251.47      5.19075     0.204548    
   1271.72      5.18704     0.198261    
   1292.29      5.18336     0.192151    
   1313.19      5.17972     0.186228    
   1334.43      5.17612     0.180488    
   1356.01      5.17257     0.174925    
   1377.94      5.16907     0.169534    
   1400.23      5.16562     0.164310    
   1422.88      5.16223     0.159248    
   1445.89      5.15890     0.154338    
   1469.28      5.15563     0.149571    
   1493.04      5.15243     0.144939    
   1517.19      5.14929     0.140388    
   1541.73      5.14615     0.135973    
   1566.67      5.14305     0.131697    
   1592.01      5.13999     0.127556    
   1617.76      5.13698     0.123544    
   1643.92      5.13402     0.119658    
   1670.51      5.13110     0.115894    
   1697.53      5.12824     0.112248    
   1724.99      5.12544     0.108716    
   1752.89      5.12270     0.105266    
   1781.24      5.11999     0.101916    
   1810.05      5.11732     0.986663E-01
   1839.32      5.11469     0.955176E-01
   1869.07      5.11210     0.924686E-01
   1899.30      5.10955     0.895166E-01
   1930.02      5.10705     0.866612E-01
   1961.24      5.10459     0.838971E-01
   1992.96      5.10216     0.812206E-01
   2025.20      5.09981     0.787027E-01
   2057.95      5.09757     0.761739E-01
   2091.24      5.09532     0.737227E-01
   2125.06      5.09311     0.713481E-01
   2159.43      5.09094     0.690489E-01
   2194.36      5.08881     0.668140E-01
   2229.85      5.08672     0.646543E-01
   2265.92      5.08468     0.625607E-01
   2302.57      5.08267     0.605286E-01
   2339.81      5.08070     0.585635E-01
   2377.66      5.07877     0.566582E-01
   2416.11      5.07689     0.548123E-01
   2455.19      5.07503     0.530246E-01
   2494.90      5.07322     0.512928E-01
   2535.26      5.07144     0.496148E-01
   2576.26      5.06971     0.479897E-01
   2617.93      5.06800     0.464157E-01
   2660.27      5.06633     0.448913E-01
   2703.30      5.06470     0.434149E-01
   2747.03      5.06310     0.419853E-01
   2791.46      5.06154     0.406005E-01
   2836.61      5.06001     0.392606E-01
   2882.49      5.05851     0.379625E-01
   2929.11      5.05705     0.367055E-01
   2976.48      5.05561     0.354884E-01
   3024.63      5.05421     0.343104E-01
   3073.55      5.05284     0.331697E-01
   3123.26      5.05150     0.320658E-01
   3173.78      5.05019     0.309971E-01
   3225.11      5.04891     0.299625E-01
   3277.27      5.04765     0.289616E-01
   3330.28      5.04643     0.279922E-01
   3384.15      5.04523     0.270543E-01
   3438.88      5.04406     0.261471E-01
   3494.50      5.04292     0.252687E-01
   3551.02      5.04180     0.244190E-01
   3608.46      5.04071     0.235963E-01
   3666.82      5.03964     0.228007E-01
   3726.13      5.03860     0.220309E-01
   3786.40      5.03758     0.212856E-01
   3847.64      5.03658     0.205649E-01
   3909.87      5.03561     0.198682E-01
   3973.11      5.03466     0.191937E-01
   4037.38      5.03373     0.185476E-01
   4102.68      5.03283     0.179165E-01
   4169.03      5.03195     0.173072E-01
   4236.46      5.03109     0.167181E-01
   4304.98      5.03024     0.161487E-01
   4374.62      5.02942     0.155980E-01
   4445.37      5.02862     0.150659E-01
   4517.27      5.02784     0.145518E-01
   4590.33      5.02708     0.140547E-01
   4664.58      5.02633     0.135741E-01
   4740.03      5.02560     0.131094E-01
   4816.69      5.02490     0.126607E-01
   4894.60      5.02420     0.122266E-01
   4973.77      5.02353     0.118072E-01
   5054.21      5.02287     0.114019E-01
   5135.96      5.02223     0.110101E-01
   5219.03      5.02161     0.106315E-01
   5303.44      5.02100     0.102655E-01
   5389.22      5.02040     0.991185E-02
   5476.39      5.01982     0.957001E-02
   5564.97      5.01926     0.923971E-02
   5654.98      5.01871     0.892048E-02
   5746.44      5.01817     0.861194E-02
   5839.39      5.01765     0.831380E-02
   5933.83      5.01714     0.802574E-02
   6029.81      5.01665     0.774736E-02
   6127.33      5.01616     0.747830E-02
   6226.44      5.01569     0.721834E-02
   6327.15      5.01523     0.696712E-02
   6429.48      5.01478     0.672443E-02
   6533.48      5.01435     0.648984E-02
   6639.15      5.01392     0.626329E-02
   6746.54      5.01351     0.604440E-02
   6855.65      5.01311     0.583287E-02
   6966.54      5.01271     0.562839E-02
   7079.22      5.01233     0.543100E-02
   7193.72      5.01196     0.524026E-02
   7310.07      5.01160     0.505601E-02
   7428.31      5.01124     0.487800E-02
   7548.45      5.01090     0.470595E-02
   7670.54      5.01056     0.453990E-02
   7794.61      5.01024     0.437949E-02
   7920.68      5.00992     0.422456E-02
   8048.79      5.00961     0.407489E-02
   8178.98      5.00931     0.393020E-02
   8311.26      5.00902     0.379062E-02
   8445.69      5.00873     0.365578E-02
   8582.29      5.00845     0.352547E-02
   8721.11      5.00818     0.339979E-02
   8862.16      5.00792     0.327838E-02
   9005.50      5.00766     0.316109E-02
   9151.16      5.00741     0.304783E-02
   9299.17      5.00717     0.293857E-02
   9449.58      5.00693     0.283291E-02
   9602.42      5.00670     0.273103E-02
   9757.73      5.00648     0.263256E-02
   9915.55      5.00626     0.253775E-02
   10075.9      5.00605     0.244607E-02
   10238.9      5.00584     0.235757E-02
   10404.5      5.00564     0.227215E-02
   10572.8      5.00545     0.218970E-02
   10743.8      5.00526     0.211014E-02
   10917.6      5.00507     0.203335E-02
   11094.2      5.00489     0.195925E-02
   11273.6      5.00472     0.188774E-02
   11455.9      5.00455     0.181875E-02
   11641.2      5.00438     0.175219E-02
   11829.5      5.00422     0.168796E-02
   12020.8      5.00406     0.162601E-02
   12215.3      5.00391     0.156625E-02
   12412.8      5.00376     0.150860E-02
   12613.6      5.00362     0.145300E-02
   12817.6      5.00348     0.139938E-02
   13025.0      5.00334     0.134766E-02
   13235.6      5.00321     0.129780E-02
   13449.7      5.00308     0.124972E-02
   13667.2      5.00295     0.120336E-02
   13888.3      5.00283     0.115867E-02
   14112.9      5.00271     0.111559E-02
   14341.2      5.00259     0.107406E-02
   14573.1      5.00248     0.103404E-02
   14808.9      5.00237     0.995465E-03
   15048.4      5.00227     0.958296E-03
   15291.8      5.00216     0.922482E-03
   15539.1      5.00206     0.887977E-03
   15790.4      5.00196     0.854736E-03
   16045.8      5.00187     0.822718E-03
   16305.4      5.00178     0.791879E-03
   16569.1      5.00169     0.762180E-03
   16837.1      5.00160     0.733582E-03
   17109.4      5.00152     0.706047E-03
   17386.1      5.00143     0.679540E-03
   17667.4      5.00135     0.654024E-03
   17953.1      5.00128     0.629466E-03
   18243.5      5.00120     0.605832E-03
   18538.6      5.00113     0.583093E-03
   18838.4      5.00105     0.561215E-03
   19143.1      5.00099     0.540171E-03
   19452.7      5.00092     0.519930E-03
   19767.4      5.00085     0.500466E-03
   20087.1      5.00079     0.481560E-03
   20412.0      5.00073     0.463572E-03
   20742.1      5.00067     0.446275E-03
   21077.6      5.00061     0.429641E-03
   21418.5      5.00055     0.413645E-03
   21765.0      5.00050     0.398260E-03
   22117.0      5.00044     0.383463E-03
   22474.7      5.00039     0.369231E-03
   22838.2      5.00034     0.355541E-03
   23207.6      5.00029     0.342372E-03
   23583.0      5.00025     0.329702E-03
   23964.4      5.00020     0.317515E-03
   24352.0      5.00015     0.305788E-03
   24745.9      5.00011     0.294506E-03
   25146.2      5.00007     0.283650E-03
   25552.9      5.00003     0.273204E-03
   25966.2      4.99999     0.263151E-03
   26386.1      4.99995     0.253477E-03
   26812.9      4.99991     0.244167E-03
   27246.6      4.99988     0.235206E-03
   27687.3      4.99984     0.226582E-03
   28135.1      4.99981     0.218281E-03
   28590.2      4.99977     0.210290E-03
   29052.6      4.99974     0.202598E-03
   29522.5      4.99971     0.195192E-03
   30000.0      4.99968     0.188063E-03
